File: Log_XRF_Depths.csv
XRF Depth,SiO2,CaO,MgO,Al2O3,Fe2O3,K2O,AF10,AF20,AF30,AF60,AF90,AO10,AO20,AO30,AO60,AO90,AT10,AT20,AT30,AT60,AT90,AFCO60,AORT,AORX,BFV,CBP1,CBP2,CBP3,CBP4,CBP5,CBP6,CBP7,CBP8,CDF,CFTC,CMFF,CMFF_SIG,CMR_PHI_CO,CMRP_3MS,CNTC,CTEM,DCAL,DNPH,DPHZ,DPH8,DSOZ,DWAL_WALK2,DWCA_WALK2,DWFE_WALK2,DWGD_WALK2,DWSI_WALK2,DWSU_WALK2,DWTI_WALK2,ECGR,ECST,ESUF_WALK2,GDEV,GR,GR_EDTC,GTEM,HCAL,HDRA,HDRB,HGR,HMIN,HMNO,HNPO,HPRA,HTNP,KSDR,KTIM,NPHI,NPOR,PEF8,PEFZ,PXND_HILT,QCPMT,RHGE_WALK2,RHO8,RHOZ,RSOZ,RXO8,RXOZ,SP,SPAR,STIT,T2LM,T2LM_SIG,TCMR,TENS,TNPH,WCAR_WALK2,WCLA_WALK2,WPYR_WALK2,WQFM_WALK2,DTCO,DTSM
10396,70.9674,4.81649,1.2219,13.8658,5.28291,3.84553,4.3699,4.813,4.7731,4.7559,4.8,4.2111,4.3362,4.2053,5.098,5.0717,4.3923,4.8306,4.6153,4.7297,4.761,210.2632,4.7734,3.3502,0.173,0.0341,0.036,0.0648,0.0542,0.0061,0.0001,0.0012,0.0005,2014.579,893.7474,0.024,0.0044,0.0008,0.1269,2431.17,183.3412,1.5418,-0.022,0.1078,0.0466,0.1394,0.0826,0.043,0.0435,0,0.2752,0.0357,0.0055,89.8232,61.2084,0.7596,2.4573,80.0587,78.5647,182.2964,10.2918,-0.0242,0.1225,76.2696,7.3289,6.4858,0.2852,-0.8935,0.2485,0.1278,0.3219,0.2627,0.2694,8.3686,8.421,0.2023,0.6794,2.7725,2.6302,2.5257,0.0001,9.2493,9.3127,-206.6696,-206.7528,4.0739,4.5511,-999.25,0.197,5065,0.2486,0.0406,0.4198,0.0669,0.4727,80.3011,152.9656
10404,23.853,71.5757,0,2.58255,1.46948,0.519284,11.119,13.1783,14.7425,16.5458,14.0302,13.1214,13.6726,15.1059,9.6129,9.3812,10.6405,12.5169,12.978,14.7502,12.2764,60.4384,8.8529,11.3009,0.0397,0.0232,0.0105,0.0022,0.0082,0.0077,0.0025,0.0006,0.0005,1592.98,1631.41,0.0155,0.0042,0.0008,0.0216,3450.24,183.3412,0.9225,-0.0165,0.0761,0.0771,0.0021,0.0492,0.1156,0.0253,3.5528,0.2485,0.0262,0.0031,98.3841,63.5495,0.5124,2.8346,90.0529,95.2099,182.2964,9.6725,0.0001,-0.0042,94.2998,21.0987,18.7395,0.1499,0.0264,0.1542,0.0004,0.0147,0.1631,0.1485,3.2549,3.5401,0.1387,0,2.7401,2.5782,2.5799,0.0001,26.8126,24.2414,-206.3915,-206.6263,0,3.4528,-999.25,0.0552,4632,0.154,0.2359,0.2474,0.049,0.4676,80.7895,160.4501
10412,80.2951,1.20515,1.0218,10.6881,3.7407,3.0491,13.8745,17.1203,19.024,19.3682,18.9767,12.3909,10.5041,12.1295,12.8355,12.5946,11.8842,12.0821,13.4246,13.7425,13.5304,51.6311,14.3082,11.5292,0.0526,0.0156,0.0206,0.0082,0.0156,0.0036,0,0,0.0007,1543.96,1577.49,0.0116,0.0041,0.0008,0.0281,3471.25,183.3412,0.7469,-0.0154,0.0755,0.0725,0.0057,0.0607,0.0312,0.0333,3.7066,0.3254,0.0168,0.0038,99.2993,62.379,0.5284,2.9081,91.5988,97.3533,182.2964,9.4969,-0.0012,0.0134,86.4221,36.2613,32.2608,0.156,-0.0088,0.1678,0.0009,0.0083,0.1689,0.158,3.1742,3.2215,0.1476,0.5674,2.7294,2.586,2.5809,0.0001,46.1929,43.2314,-207.2754,-206.9138,0,3.5732,-999.25,0.0643,4565.5,0.1677,0.009,0.3051,0.0314,0.6544,77.3181,126.7005
10420,75.2681,4.45722,1.55741,11.3654,4.40174,2.95015,17.3586,19.5176,18.0469,16.5116,17.6602,16.4437,33.2753,22.5286,21.1745,20.3789,16.9452,18.5455,19.0635,17.2199,19.1217,60.5637,14.7758,19.863,0.0515,0.0278,0.0162,0.0073,0.0011,0.0084,0.0015,0,0.0006,1618.29,1545.82,0.0114,0.0041,0.0008,0.0189,3350.79,183.3412,0.8856,-0.0164,0.0817,0.0854,0.0546,0.0689,0.0352,0.0375,8.8172,0.3068,0.0184,0.0051,88.3607,65.8906,0.5139,2.9953,81.0099,85.4633,182.2964,9.6356,-0.0075,-0.0279,79.5605,32.3243,28.7485,0.1682,0.1136,0.1621,0.0003,0.0082,0.163,0.1681,3.2479,3.3185,0.1455,0.3802,2.7398,2.564,2.5702,0.01,41.1591,38.2698,-206.9811,-206.6551,0,2.2667,-999.25,0.0629,4661.4,0.1621,0.0196,0.3461,0.0345,0.5998,74.3431,122.7196
10428,78.1953,3.02881,0.925174,11.1527,3.77567,2.92233,11.1914,14.8093,15.6542,15.1962,12.6977,11.04,13.6297,13.4335,11.5027,11.2775,10.8509,13.9782,15.0633,15.9161,12.8797,65.8059,10.1168,9.6889,0.0542,0.0169,0.0166,0.0165,0.0049,0.0028,0.0022,0.0001,0.0003,1797.37,1703.22,0.0061,0.004,0.0008,0.0269,3532.28,183.3412,0.8062,-0.0155,0.0546,0.0694,0.0257,0.0555,0.0523,0.032,8.3616,0.3085,0.005,0.003,89.4712,61.2084,0.5214,2.7004,82.3159,83.4025,182.2964,9.5562,-0.0005,0.0096,81.5638,37.7332,33.5764,0.1437,0.0389,0.1489,0.0005,0.0017,0.1477,0.1492,3.6261,3.4831,0.1302,0.1687,2.7168,2.5913,2.6167,0.0001,48.0793,32.8638,-206.3934,-206.4714,2.9627,2.9325,-999.25,0.0603,4971.167,0.1488,0.0656,0.2788,0.0094,0.6462,72.7217,121.0754
10436,89.0653,1.19899,1.21808,4.71628,2.8997,0.901654,10.5744,12.9219,13.0619,12.4324,13.8292,10.0229,13.5855,16.6553,17.6597,17.2916,11.1426,14.0396,13.448,12.6885,16.4878,80.4352,14.8854,6.2988,0.0551,0.015,0.018,0.0173,0.0054,0.0018,0.0002,0.0003,0,1611.2,1579.75,0.0029,0.0033,0.0008,0.0249,3415.22,183.3412,0.9872,-0.0171,0.0518,0.0496,0.0334,0.0636,0.0396,0.0347,5.3283,0.3107,0.0203,0.0034,88.8402,62.379,0.5534,2.4063,81.087,81.9142,182.7997,9.7372,-0.0037,0.002,77.9032,12.9224,11.4584,0.1774,0.0898,0.1606,0.0003,0.0003,0.186,0.1695,3.4507,3.44,0.1368,0,2.7377,2.6252,2.6214,0.0001,16.3763,16.2595,-206.829,-206.5879,0,2.5487,-999.25,0.058,4689.6,0.1604,0.0315,0.3198,0.0381,0.6107,73.6912,123.6084
10444,82.462,8.74971,0.641687,4.67899,2.39265,1.07493,14.0622,21.152,23.4809,23.6427,24.7866,15.0255,20.65,13.7584,12.452,12.0786,13.5453,23.5768,25.7119,23.707,28.6265,42.2964,12.3668,12.884,0.0604,0.0176,0.0149,0.0195,0.0092,0,0.0015,0.0009,0,1586.31,1774.528,0.0032,0.0041,0.0008,0.0311,3497.864,183.3412,0.7839,-0.0151,0.0728,0.0736,0.0648,0.0518,0.0618,0.0298,6.2436,0.304,0.0041,0.0032,80.2457,62.379,0.5066,0.8565,73.9013,84.815,182.7997,9.5339,-0.0088,-0.0356,69.2105,30.5525,27.1687,0.1495,0.1378,0.1343,0.0006,0.0005,0.1347,0.1458,3.3378,3.3974,0.1243,0.1355,2.7133,2.5842,2.5856,0.0076,38.8949,43.6799,-206.8295,-206.6037,0,2.9449,-999.25,0.0636,4614.8,0.1345,0.0911,0.2603,0.0077,0.6408,75.2951,124.501
10452,78.1676,3.91449,0.580509,10.3099,4.18853,2.83897,15.5783,22.484,20.072,15.4851,16.8311,7.5545,7.4932,6.5442,6.0411,6.074,13.0686,15.4093,13.2073,10.4884,9.7935,64.5783,5.8378,10.9221,0.059,0.025,0.0243,0.0068,0.0094,0.0087,0,0,0.0003,1499.07,1969.79,0.0156,0.0041,0.0008,0.0252,3700.82,183.3412,0.8717,-0.0153,0.0828,0.0815,0.0749,0.0533,0.0489,0.0302,14.348,0.3167,0.0089,0.0028,86.6032,64.7201,0.4746,1.6779,79.4471,88.6781,182.7997,9.6217,-0.0083,-0.0258,80.7054,30.9571,27.5296,0.1138,0.1219,0.1208,0.0009,0.0216,0.1255,0.1136,3.4024,3.3438,0.1157,0.6304,2.7175,2.5707,2.5685,0.0001,39.4124,37.8331,-206.875,-206.9142,0,2.6522,-999.25,0.0745,4493,0.1208,0.0565,0.268,0.0167,0.6588,74.0821,120.6506
10461,76.7439,4.90574,1.24765,10.3442,4.0725,2.68602,11.4364,12.9209,13.4787,13.1182,13.0526,10.0969,13.1622,14.6937,16.7738,16.5777,10.8471,12.857,13.9348,13.2644,13.0654,76.2299,16.4791,9.4594,0.0473,0.0193,0.0217,0.0035,0.0068,0.0061,0.0003,0,0,1987.21,1980.08,0.0103,0.0039,0.0008,0.0167,3807.78,183.3412,0.787,-0.0149,0.0431,0.044,0,0.0648,0.0461,0.0362,2.7831,0.3003,0.0114,0.0047,85.7656,62.379,0.5111,2.7346,78.974,82.859,182.7997,9.537,-0.0017,-0.0087,79.7037,11.948,10.5923,0.1422,0.0273,0.1273,0.0003,0.0052,0.1387,0.1396,3.5043,3.512,0.1131,0.2229,2.7309,2.6348,2.6363,0.0001,15.1355,15.4608,-208.3199,-208.2288,4.7623,2.443,-999.25,0.0576,5064.4,0.1273,0.0491,0.3256,0.0213,0.604,68.1863,114.5444
10469,73.8345,7.07578,1.11028,10.7332,4.15979,3.086466,12.487,16.0315,16.0971,15.3291,14.2805,12.8574,17.5073,18.192,16.076,15.8683,12.1137,17.7098,17.3599,16.6541,14.7969,65.2353,16.4133,8.3588,0.0666,0.0267,0.028,0.0106,0.0031,0.0031,0,0,0,1531.08,1715.75,0.005,0.0039,0.0008,0.0169,3398.44,183.3412,0.7485,-0.0148,0.0523,0.0498,0,0.0558,0.0689,0.0305,7.7003,0.2901,0.0169,0.0033,84.8877,62.379,0.5287,2.4484,78.2994,81.4105,182.7997,9.4985,-0.0011,-0.0101,78.5591,14.2881,12.6736,0.1419,0.0308,0.1361,0.0003,0.0015,0.1544,0.1355,3.6302,3.7199,0.1212,0,2.7307,2.6249,2.6206,0.0001,18.1187,19.5176,-208.7652,-208.7579,0,1.68,-999.25,0.0716,4635,0.1362,0.1103,0.2805,0.0316,0.5776,70.6858,119.2418
10477,76.9667,3.63924,0.93574,11.398,3.70966,3.35067,17.7197,21.3826,22.0697,21.691,21.5046,18.0043,21.5195,21.4347,19.7383,19.5606,18.3783,20.6091,21.3698,21.0395,20.5828,46.102,20.0874,14.2615,0.0645,0.0329,0.0238,0.0031,0.0094,0.0013,0,0,0.0001,1545.582,1934.77,0.0062,0.0039,0.0008,0.014,3749.38,183.3412,0.5675,-0.0134,0.0617,0.051,0.0503,0.0539,0.0675,0.0309,8.2034,0.2937,0.0057,0.0031,91.5709,60.0379,0.4869,2.7475,85.151,87.5657,183.303,9.3175,-0.0042,0.0028,87.0488,24.9265,22.1514,0.1283,0.0661,0.131,0.0002,0.0024,0.1405,0.1287,3.6562,3.5734,0.1195,0.0388,2.7181,2.6228,2.6046,0.0001,31.704,30.7993,-209.5322,-209.4038,0,1.5395,-999.25,0.0707,4590.6,0.131,0.1065,0.2707,0.0106,0.6121,74.4399,123.8986
10485,82.9827,6.14276,1.00601,6.13433,2.12305,1.61116,32.2052,55.7088,63.5653,56.0076,53.3328,30.8734,36.6306,37.016,35.1139,35.3975,30.6866,45.806,51.3661,46.8782,40.2247,17.8547,37.1663,14.0657,0.0237,0.0101,0.0099,0.0017,0.0078,0.0116,0.0001,0,0.001,1533.15,2920.9,0.0186,0.0042,0.0008,0.0223,4683.46,183.3412,0.3672,-0.0109,0.064,0.0598,0.0207,0.0311,0.0511,0.0166,6.6909,0.3541,0.0116,0.0021,79.7082,60.0379,0.4173,2.6511,74.7964,74.6377,183.303,9.1172,-0.0011,-0.0028,70.4501,169.6266,152.4256,0.0853,0.0547,0.0869,0.0006,0.0199,0.0811,0.0792,3.0932,3.4038,0.0849,0.2915,2.6958,2.6077,2.6006,0.0094,257.5445,135.1925,-211.2727,-211.4789,0,6.8728,-999.25,0.0423,4603.6,0.0869,0.0625,0.1565,0.0217,0.7593,64.6594,104.988
10493,74.3556,8.42789,1.71742,9.5773,3.37697,2.54487,30.2254,46.1937,52.0043,49.594,47.7319,38.2651,43.3642,56.5653,42.0788,41.1539,30.6832,46.8024,55.2397,54.6499,50.745,20.1637,42.1726,14.1518,0.0312,0.0051,0.0184,0.0021,0.0142,0.0064,0,0.0001,0.0012,1535.14,3290.58,0.0163,0.0041,0.0008,0.0241,4924.84,183.3412,0.3942,-0.0106,0.05,0.0515,0,0.041,0.0825,0.022,5.8278,0.3002,0.0137,0.0029,69.0501,61.2084,0.4187,2.3227,64.7154,70.46,183.303,9.1442,-0.0009,0.0006,62.8067,81.4368,72.6907,0.0656,0.0015,0.0731,0.0008,0.0139,0.0709,0.0637,3.1768,3.3027,0.0714,0,2.7137,2.622,2.6245,0.0001,104.1342,98.3128,-213.6572,-213.8686,0,6.3926,-999.25,0.0475,4571.667,0.0731,0.1469,0.2061,0.0256,0.6213,63.8115,103.239
10501,75.9414,3.48258,1.36328,13.3861,3.33337,2.49335,26.0929,38.1537,39.4382,39.0627,37.0985,26.8672,38.4346,40.3575,42.7704,41.6218,26.4316,37.8165,39.0108,38.6084,38.5039,25.5999,45.0018,14.489,0.0563,0.0134,0.0267,0.0116,0.0062,0.0004,0,0.0009,0.0024,1541.377,2201.44,0.0054,0.0042,0.0008,0.0216,4162.93,184.3576,0.4743,-0.0126,0.0666,0.0678,0.0562,0.0404,0.0792,0.0216,10.1717,0.3053,0.0139,0.003,91.3679,60.0379,0.4926,2.4234,85.3208,92.3329,183.303,9.2243,-0.0075,-0.0132,86.4291,30.8113,27.4002,0.1522,0.1013,0.1248,0.0006,0.0014,0.1283,0.1477,3.3071,3.2628,0.1159,0.2066,2.7125,2.5941,2.596,0.0001,39.2273,44.8551,-212.7235,-212.7612,0,3.1204,-999.25,0.0617,4621.8,0.1247,0.1382,0.2029,0.0259,0.633,68.2916,111.2841
10509,43.5574,28.9533,11.1952,7.32548,7.52778,1.44092,33.4015,51.0949,53.522,49.5581,45.8589,39.3662,72.7685,90.8911,72.4223,73.0406,39.7189,75.1943,65.9956,63.3249,55.0678,20.1783,71.4305,15.2231,0.0325,0.012,0.0145,0.0007,0.0137,0.0029,0,0,0,1541.26,3189.51,0.0113,0.0037,0.0008,0.0173,4870.39,185.3176,0.4596,-0.0111,-0.0336,-0.0334,0,0.0679,0.1504,0.0383,1.1663,0.1727,0.0139,0.0031,38.8782,60.0379,0.4174,2.8575,36.3292,35.6973,183.303,9.2096,0.0001,0.0404,33.0908,220.7217,198.8253,0.0756,-0.0195,0.0765,0.0002,0.0046,0.0683,0.0685,4.322,4.2949,0.0619,0.0416,2.7557,2.7671,2.7674,0.0154,388.1815,374.5319,-214.8842,-214.9787,0,3.4825,-999.25,0.0438,4563.33,0.0765,0.3296,0.3415,0.0261,0.3028,62.4177,107.2441
10517,76.0681,10.6769,1.39633,8.08351,2.38141,1.39372,57.3103,245.9406,606.8399,441.0168,356.6669,70.6367,336.2175,345.744,245.6558,277.824,59.6844,282.9036,673.8276,489.8573,456.5914,2.2675,321.8867,21.5298,0.0321,0.0069,0.0115,0.0061,0.0135,0.0023,0,0.0001,0.0006,1569.99,2411.47,0.0089,0.0039,0.0008,0.0227,4293.01,185.3176,0.5112,-0.0125,0.081,0.0793,0,0.038,0.1062,0.0202,6.4609,0.2779,0.0138,0.0029,85.6311,60.0379,0.4413,1.9118,79.8299,85.0919,183.6805,9.2612,-0.0023,0.0022,85.1888,464.3202,415.7595,0.1094,0.054,0.1094,0.0003,0.0023,0.1112,0.1068,3.8855,3.6884,0.1061,0.3001,2.7145,2.5744,2.5714,0.0027,1144.84,1077.28,-218.983,-218.5472,0,5.0835,-999.25,0.041,4538.8,0.1093,0.2108,0.1912,0.0258,0.5722,67.9293,109.5868
10525,71.3258,18.9031,0.952868,6.00117,2.00511,0.811946,51.5816,156.0046,216.0142,185.8003,178.8294,60.9401,304.2383,318.9781,227.9793,253.4559,56.3164,223.7464,308.9679,245.7463,255.4024,5.3821,245.6307,14.9426,0.0285,0.0061,0.0153,0.007,0.0013,0.0145,0.0018,0,0.0001,1563.18,4853.24,0.0176,0.0042,0.0008,0.0247,5939.57,185.3176,0.4365,-0.0095,0.0432,0.0485,0,0.0246,0.1545,0.0128,2.3665,0.2451,0.0113,0.0017,51.7367,62.379,0.3647,1.9644,48.3954,49.3413,183.8063,9.1865,-0.0001,0.0123,48.9382,444.5618,398.2671,0.0271,-0.0074,0.0399,0.0009,0.0174,0.0247,0.0298,3.8521,3.8521,0.0415,0.2562,2.7061,2.627,2.6361,0.0035,777.5994,707.0406,-218.5533,-218.2351,0,6.9635,-999.25,0.0461,4601.83,0.0398,0.3405,0.1234,0.0212,0.5149,61.9951,100.8794
10533,76.7727,12.5386,1.04968,6.77122,1.75505,1.11266,40.3972,99.7488,130.6503,106.4083,106.6485,41.0266,121.2581,155.7495,95.1765,103.4837,41.6791,114.3187,131.7487,104.5415,102.1627,9.3978,112.5918,11.2741,0.0286,0,0.0024,0.0164,0.0117,0.001,0.0017,0,0,1541.377,3330.91,0.0045,0.0038,0.0008,0.0308,4974,185.3176,0.5367,-0.0114,0.0598,0.0628,0.0139,0.0387,0.0944,0.0218,7.4434,0.2893,0.0074,0.002,72.5651,61.2084,0.4298,2.542,67.5714,70.7341,183.8063,9.2867,-0.004,-0.0049,67.6244,155.8478,139.6085,0.068,0.0554,0.0719,0.0004,0.0003,0.0686,0.0678,3.1543,3.3532,0.0711,0.0812,2.708,2.6026,2.6078,0.0034,211.9877,232.6563,-218.068,-218.1683,0,9.6457,-999.25,0.0331,4706.33,0.0718,0.1791,0.1945,0.0138,0.6126,65.7,106.6376
10541,68.3012,15.784,1.02683,9.91497,3.19022,1.78277,38.8407,96.3923,132.2194,111.1941,105.6958,38.0938,95.4857,114.1354,92.834,97.7101,38.0668,95.1982,125.0537,105.6047,98.4187,8.9933,111.8973,10.5108,0.0253,0.0073,0.0091,0.0052,0.0077,0.0038,0,0,0.0002,1520.2,2924.45,0.008,0.0037,0.0008,0.0169,4603.62,185.3176,0.5575,-0.0119,0.0335,0.0317,0,0.044,0.1273,0.0249,4.8242,0.2416,0.01,0.0016,78.2336,62.379,0.4326,2.3634,72.7816,74.6505,183.8063,9.3075,-0.0011,-0.0031,77.2234,128.5198,114.9312,0.0821,0.0155,0.082,0.0001,0.0013,0.083,0.0834,3.7781,3.7418,0.0772,0.1364,2.7223,2.6558,2.6527,0.0014,167.0547,173.586,-221.5864,-221.4538,0,4.3234,-999.25,0.0333,4605.167,0.082,0.2675,0.2213,0.0187,0.4925,65.1839,106.5017
10549,73.371,7.80801,1.39733,11.7126,3.43089,2.28016,34.5379,68.8199,84.0465,75.0461,69.7292,32.9767,98.7502,69.9739,54.6807,54.4514,32.3509,72.6731,87.1555,78.7086,74.6434,13.3251,61.1642,12.6702,0.0293,0.0041,0.0102,0.0117,0.0062,0.003,0,0,0.0006,1541.377,2172.04,0.0066,0.0038,0.0008,0.0216,4057.06,185.3176,0.465,-0.0125,0.0686,0.0704,0.0215,0.0443,0.129,0.0247,7.121,0.2395,0.0097,0.0026,113.5691,60.0379,0.4826,2.3913,106.0971,108.1305,184.3096,9.215,-0.0046,-0.036,100.4167,256.6586,229.942,0.1195,0.0994,0.1217,0.0002,0.0008,0.1353,0.1172,3.7902,3.8319,0.114,0.3735,2.7218,2.5896,2.5926,0.0001,351.4727,108.4949,-218.5246,-218.5349,0,5.3074,-999.25,0.0359,4616.4,0.1217,0.272,0.2225,0.0181,0.4874,68.2556,113.326
10558,66.3971,21.0374,1.32928,7.87435,2.25493,1.10697,25.6388,39.0141,41.7468,39.2964,37.1524,25.0655,40.3605,43.4435,40.3683,39.6859,25.781,40.7341,43.8556,41.3326,38.5479,25.4477,41.8632,12.4812,0.0264,0.0034,0.01,0.008,0.0087,0.0037,0.0005,0,0.0015,1556.81,2946.65,0.0094,0.004,0.0008,0.0224,4678.55,185.3176,0.539,-0.0119,0.0214,0.0201,0.0213,0.0427,0.144,0.0232,4.5282,0.2254,0.014,0.0025,95.5652,61.2084,0.4395,2.4613,88.9795,88.9795,184.3096,9.289,0,0.0008,92.9753,45.7193,40.7101,0.0789,0.0308,0.0837,0.0004,0.0018,0.0815,0.0827,4.1423,4.0325,0.0769,0.5794,2.7266,2.6756,2.6735,0.0001,58.3058,64.9421,-213.8561,-214.0409,0,7.4289,-999.25,0.0358,4587.6,0.0838,0.3122,0.2146,0.0262,0.447,64.2608,108.719
10566,71.5384,10.613,1.51629,11.0928,3.11937,2.12025,26.254,41.0067,44.4229,41.2747,39.1067,26.7043,42.5585,46.7306,44.0343,43.8761,25.8221,41.2519,44.7264,41.4535,38.5558,24.2279,45.0946,12.4142,0.0491,0.0096,0.0235,0.0128,0.0052,0.0009,0.0013,0.0011,0.0001,1538.25,2943.91,0.0054,0.0041,0.0008,0.0214,4699.5,185.3176,0.3595,-0.0108,0.0292,0.0305,0,0.0389,0.1135,0.0212,5.7563,0.2674,0.0078,0.0037,104.6813,60.0379,0.4939,2.5726,98.2652,84.7388,184.3096,9.1095,-0.0036,-0.0126,99.6412,47.1464,41.9837,0.0921,0.0908,0.086,0.0003,0.0011,0.089,0.0925,3.832,3.7903,0.0798,0,2.7105,2.6578,2.6601,0.0001,60.131,60.0749,-217.0037,-217.3611,0,3.1229,-999.25,0.0545,4596.83,0.086,0.2304,0.1955,0.0145,0.5596,64.1753,108.3218
10574,73.9615,8.17808,1.982136,10.9294,2.88731,2.06159,35.6998,75.8571,88.3128,74.6063,70.7756,31.1251,73.1715,73.8037,50.6794,51.2895,34.1113,77.5982,86.6405,73.3162,68.9522,13.4037,61.8449,12.1368,0.0268,0.0115,0.0113,0.0034,0.0031,0.0055,0,0,0,1534.61,3252.35,0.0079,0.0034,0.0008,0.012,4976.63,185.3176,0.2979,-0.0101,0.0242,0.0261,0,0.0357,0.1171,0.0205,5.923,0.2678,0.004,0.002,72.6377,61.2084,0.3951,2.0997,68.3783,74.756,184.3096,9.0479,-0.0025,0.0034,64.321,56.7338,50.5671,0.0845,0.0617,0.0778,0,0.0013,0.0687,0.0904,3.5652,3.7479,0.0725,0.6672,2.7054,2.6654,2.6686,0.0007,72.431,96.8344,-221.546,-221.6291,0,2.7534,-999.25,0.0348,4693.2,0.0778,0.2401,0.1793,0.0075,0.5731,59.9489,100.4772
10582,76.4171,15.9098,0,5.55356,1.40334,0.716238,52.6147,226.9731,341.1771,245.8647,209.8949,54.3843,334.6252,479.9472,329.7743,351.2745,55.2673,306.2169,390.2144,327.2433,265.7993,4.0673,344.0525,21.6953,0.0232,0.004,0.0032,0.0105,0.0091,0.0068,0.0027,0.0001,0,1557.63,6033.36,0.013,0.0041,0.0008,0.0291,6637.77,185.3176,0.2555,-0.0079,0.0557,0.0526,0.0607,0.0158,0.1792,0.0082,5.8335,0.2312,0.0046,0.002,57.7643,60.0379,0.3519,2.3686,54.4831,60.3456,184.3096,9.0055,-0.0077,-0.0393,49.5468,376.5456,338.0922,0.0301,0.1516,0.0265,0.0007,0.0055,0.018,0.0292,3.6882,3.8793,0.0406,0,2.694,2.62,2.6147,0.0109,599.076,589.7888,-222.0221,-222.0968,0,10.3028,-999.25,0.0363,4649,0.0265,0.4071,0.0793,0.0086,0.5051,58.0774,95.826
10590,74.353,8.44231,1.02682,10.7447,3.1926,2.2406,32.9578,60.6938,69.0922,61.2342,59.9072,31.9494,58.7843,63.3629,56.7844,58.5263,33.1381,61.4636,68.9619,61.5379,58.5867,16.3307,63.4874,13.8119,0.0467,0.0186,0.0172,0.0033,0.0121,0.0002,0,0,0.0016,1563.093,3307.48,0.0063,0.004,0.0008,0.0171,4912.07,185.3176,0.2201,-0.0095,0.0328,0.0274,0,0.0419,0.0909,0.023,6.716,0.2884,0.0127,0.0021,96.4571,61.2084,0.4339,2.2921,91.1267,102.7928,184.4354,8.9701,-0.0024,-0.0098,88.3731,64.7169,57.7194,0.073,0.0426,0.0727,0.0002,0.0014,0.0713,0.0741,3.4907,3.532,0.0693,0.1146,2.7158,2.6632,2.6539,0.0001,82.6807,85.8433,-222.7178,-222.6607,0,2.6108,-999.25,0.053,4588.2,0.0727,0.1696,0.2105,0.0238,0.5961,65.6663,106.4505
10599,61.192,28.4778,2.01178,5.948,1.50637,0.864025,56.8563,359.4633,923.0089,488.498,338.955,59.2576,637.6351,693.3544,263.3123,281.2866,58.1503,481.3571,1192.58,500.5781,337.5394,2.0471,378.3349,10.3176,0.009,0.0047,0.002,0.0021,0.0014,0.0122,0.001,0,0.0004,1541.95,6826.05,0.0149,0.0041,0.0008,0.0172,6892.07,185.3176,0.2786,-0.0076,0.02,0.0219,0,0.0224,0.2158,0.0126,2.4466,0.1763,0.0041,0.0013,41.1419,60.0379,0.3231,1.9406,38.7637,37.5823,184.8129,9.0286,-0.0005,-0.0007,36.3819,377.319,338.8294,0.0102,0.012,0.0163,0.0003,0.0002,0.0102,0.0112,4.3859,4.3911,0.018,0.5808,2.7078,2.6726,2.6758,0.0085,2875.25,2257.56,-225.5057,-225.215,0,14.6646,-999.25,0.0238,4570.8,0.0163,0.5054,0.1127,0.0078,0.3741,56.3417,93.3562
10607,72.9579,6.96837,1.5686,11.7338,4.25537,2.5159,31.9206,58.8601,68.0979,61.5662,59.4824,35.1151,65.49,70.0052,65.3758,66.0071,33.2413,62.7715,71.4591,64.0926,59.7248,16.2427,70.5794,12.4357,0.0569,0.0213,0.0105,0.0158,0.0107,0,0.0001,0,0.0003,1561.35,2131.79,0.0017,0.0035,0.0008,0.0269,3943.91,185.3176,0.3356,-0.0116,0.0568,0.0575,0.0122,0.0574,0.0883,0.0318,6.4498,0.2643,0.0162,0.0025,130.9447,62.379,0.4756,2.8048,123.0531,123.371,184.8129,9.0856,-0.0048,-0.0158,123.4546,74.7615,66.715,0.1286,0.1204,0.1202,0.0003,0.0001,0.13,0.1282,3.6071,3.6637,0.1108,0,2.7358,2.6117,2.6129,0.0001,95.5713,97.0718,-221.886,-221.7442,0,2.3835,-999.25,0.0586,4651.2,0.1202,0.1624,0.2884,0.0304,0.5188,68.9014,109.6029
10615,74.702,5.16887,1.23555,12.6098,3.33199,2.95172,33.0236,64.9948,79.1916,70.6611,67.0947,25.1244,42.8174,44.4055,40.5762,40.5265,28.6339,51.8788,60.2602,54.8167,52.9181,14.1521,46.6539,12.3033,0.051,0.0178,0.0146,0.0127,0.0065,0,0.0016,0.0007,0,1559.33,3139.95,0.0029,0.0038,0.0008,0.0215,4950.35,185.3176,0.4096,-0.011,0.0358,0.0394,0,0.0379,0.1096,0.0204,5.0689,0.2738,0.0143,0.002,92.6534,60.0379,0.4471,2.4663,86.776,79.7951,184.8129,9.1596,-0.0019,0.0176,92.1531,56.2604,50.1453,0.1047,0.0391,0.0832,0.0002,0.0003,0.0892,0.1092,3.3391,3.5059,0.0783,0.331,2.7161,2.6426,2.6488,0.0001,71.8268,89.8539,-221.5772,-221.4411,0,2.461,-999.25,0.0539,4654.4,0.083,0.2199,0.1907,0.0267,0.5627,67.6866,108.502
10623,81.1822,2.22966,1.02985,10.8334,2.27804,2.44685,22.3741,33.4439,36.5827,35.1269,33.8566,20.4204,27.6433,28.2199,27.6846,27.8236,20.5552,28.1169,30.0251,29.1526,27.5347,28.4682,29.4264,12.8059,0.0357,0.0148,0.0153,0.0017,0.0103,0.004,0,0,0.0001,1540.24,2201.07,0.0106,0.0037,0.0008,0.0161,3992.18,185.3176,0.4789,-0.0124,0.0579,0.0526,0.0532,0.0533,0.0817,0.029,8.562,0.2796,0.0152,0.0037,104.6453,61.2084,0.4913,2.3351,97.699,102.0937,184.8129,9.2289,-0.0068,-0.0259,102.4555,33.0309,29.3812,0.1251,0.1034,0.1145,0.0002,0.004,0.1179,0.1208,3.2726,3.3997,0.1065,0.0475,2.7282,2.62,2.611,0.0001,42.0674,39.5121,-221.4929,-221.813,0,2.8751,-999.25,0.0462,4665.33,0.1143,0.1447,0.2677,0.0284,0.5591,67.3967,108.842
10631,75.4694,5.83967,1.13573,11.951,3.04937,2.55489,36.6181,82.3565,109.1423,98.1454,91.2515,39.4341,102.9003,123.0598,97.5483,100.7112,37.2569,86.9356,115.3871,104.3,94.076,10.189,110.0436,15.522,0.0512,0.0173,0.016,0.014,0.0041,0,0.0024,0.0006,0,1555.95,2368.16,0.0032,0.004,0.0008,0.0211,4183.085,185.3176,0.4288,-0.0119,0.0553,0.058,0.0127,0.0495,0.0478,0.0263,6.6125,0.3263,0.0161,0.0044,106.9958,60.0379,0.4962,2.2445,100.1208,108.8342,184.8129,9.1788,-0.0038,0.0058,101.0727,139.4709,124.6726,0.1242,0.0678,0.1081,0.0002,0.0003,0.1128,0.1189,3.3919,3.3608,0.1013,0.2782,2.7185,2.6108,2.6154,0.0001,178.6257,157.3095,-228.0607,-228.0762,0,2.45,-999.25,0.0544,4620,0.1081,0.0537,0.2488,0.0302,0.6673,67.1762,108.0571
10639,74.7739,10.9393,2.02183,8.10938,2.68871,1.46696,42.1798,130.6909,252.2819,244.474,185.9225,39.3694,122.6477,134.3156,99.014,101.3283,42.2856,135.4154,210.372,199.6836,138.6513,4.0904,121.3832,12.6377,0.0221,0.0085,0.0098,0.0009,0.0067,0.0057,0.0032,0,0,1536.73,4922.66,0.0127,0.0041,0.0008,0.0165,6121.81,185.3176,0.3557,-0.0091,0.0435,0.0325,0.0699,0.0314,0.1508,0.0172,3.7373,0.2369,0.0084,0.002,55.7127,60.0379,0.3846,2.6824,52.3071,54.1502,185.3162,9.1057,-0.0083,-0.0447,57.4886,150.7755,134.7965,0.0517,0.1791,0.0424,0.0002,0.0054,0.0317,0.0525,3.7508,4.0051,0.043,0.3191,2.7103,2.6544,2.6357,0.0001,193.1333,224.5133,-232.1268,-232.0945,0,5.758,-999.25,0.0348,4591.8,0.0425,0.3306,0.1576,0.0157,0.4961,56.3193,96.2894
10647,79.9061,8.54627,1.61132,6.92998,1.7181,1.2882,37.3203,84.5241,107.6932,93.0167,89.0071,36.375,80.3704,89.8059,75.8766,78.6347,37.4037,87.184,108.4257,95.2792,86.3214,10.7508,91.8914,11.37,0.0381,0,0.0007,0.0309,0.0065,0,0.003,0.0024,0,1526.5,4612.54,0.0055,0.0042,0.0008,0.0428,5752.33,185.3176,0.3056,-0.0089,0.0414,0.0426,0.0165,0.0266,0.107,0.0147,5.9103,0.2961,0.0022,0.0031,62.5049,60.0379,0.404,1.4479,58.8189,61.5678,185.3162,9.0556,-0.0042,-0.002,61.0418,70.5053,63.6562,0.0477,0.0821,0.0432,0.0016,0.0007,0.0385,0.0443,3.2986,3.4672,0.0432,0.052,2.6908,2.6372,2.6392,0.0079,108.0711,113.372,-229.4246,-229.6319,0,10.4223,-999.25,0.0436,4588.83,0.0433,0.2128,0.1337,0.0041,0.6493,61.1867,99.0611
10655,80.727,6.40234,1.12292,7.85454,2.24773,1.6455,41.4424,111.704,146.1292,119.4026,112.528,41.4449,113.1003,127.9654,104.3907,107.8196,42.3091,116.0748,144.7578,118.1472,110.1439,8.375,123.6339,16.3736,0.0284,0.0054,0.0075,0.0064,0.0144,0.0013,0.0001,0.0022,0.0014,1551.165,4895.76,0.0102,0.0043,0.0008,0.0257,6017.68,185.5921,0.2987,-0.0088,0.0444,0.0477,0,0.0323,0.1343,0.0167,3.8861,0.2554,0.0133,0.0029,57.4152,61.2084,0.3785,2.2213,54.0465,63.647,185.3162,9.0487,-0.0039,-0.0272,53.708,75.4415,67.983,0.051,0.0857,0.0411,0.0007,0.0029,0.033,0.0503,3.37,3.4822,0.0428,0.5058,2.7123,2.6285,2.634,0.0119,113.1152,112.6358,-230.057,-229.7687,0,8.6844,-999.25,0.0386,4552.6,0.0411,0.2864,0.1622,0.025,0.5265,59.8855,98.0305
10663,62.9308,29.0613,0,5.60586,1.58701,0.815047,55.2338,268.5892,385.1455,299.2897,244.1526,63.9623,1658.4,1392.44,318.1839,314.1476,62.5039,556.1279,1022.51,701.2484,407.3709,3.3412,345.2939,13.5324,0.0082,0.0021,0.0033,0.0012,0.0034,0.0042,0.0031,0.0002,0.0005,1571.85,7443.38,0.0098,0.0042,0.0008,0.0126,7114.17,187.2941,0.3218,-0.0075,0.0247,0.0229,0.0303,0.0176,0.2079,0.009,2.9358,0.1948,0.0095,0.0013,32.6613,60.0379,0.3333,2.3304,30.7124,32.568,185.3162,9.0718,-0.0023,-0.0019,30.372,374.9618,336.6093,0.0053,0.0398,0.0102,0.0001,0,0.0064,0.0026,4.3011,4.1845,0.0168,0.2675,2.706,2.6709,2.6677,0.012,3143.81,3367.5,-228.7059,-228.5999,0,16.3992,-999.25,0.018,4658.33,0.0103,0.4843,0.0886,0.0177,0.4094,56.9247,94.8686
10671,77.6732,3.60739,1.15002,11.7924,3.14589,2.63113,22.4327,30.9558,31.6881,30.199,29.2043,22.925,31.5013,29.6142,27.5953,27.3353,22.5621,31.3686,31.4737,29.7389,28.0411,33.1137,29.2311,12.6628,0.0417,0.0081,0.0119,0.0154,0.0085,0.0021,0.0006,0,0,1518.23,2019.04,0.0049,0.0036,0.0008,0.0266,3849.26,187.2941,0.3903,-0.0121,0.0595,0.0583,0,0.0497,0.0659,0.028,4.5169,0.3034,0.0064,0.0036,117.569,61.2084,0.5175,2.0138,110.2078,115.7993,185.8195,9.1403,-0.0034,-0.0133,106.1873,42.3607,37.7137,0.1509,0.0721,0.128,0.0003,0.0006,0.1388,0.1386,3.3588,3.3935,0.1168,0.2515,2.7134,2.6103,2.6082,0.0001,54.0119,46.0162,-224.4905,-224.2374,0,4.0761,-999.25,0.0466,4617.8,0.1277,0.1021,0.2498,0.012,0.6361,69.1591,112.9836
10679,82.7143,1.97499,0.806845,9.55549,2.88234,2.06604,28.2982,43.6381,46.4613,44.0367,40.9679,30.8146,49.3449,54.6084,49.9434,49.8266,30.6292,47.4102,49.1826,46.3662,43.4058,22.7083,52.723,15.9464,0.0361,0.0222,0.0054,0.0025,0.0107,0.0024,0,0,0.001,1524.83,2673.94,0.0083,0.0039,0.0008,0.0167,4405.37,187.2941,0.331,-0.0108,0.0653,0.061,0.0469,0.0501,0.0336,0.0274,5.1637,0.3411,0.012,0.0039,91.6897,58.8674,0.4571,2.4709,86.1821,90.8719,185.8195,9.081,-0.0073,-0.033,87.5144,63.5227,56.6566,0.0968,0.1101,0.0929,0.0001,0.0021,0.0973,0.0929,3.0635,3.0817,0.0903,0.3707,2.7134,2.6057,2.5984,0.0001,81.1585,74.2204,-225.8787,-225.6137,0,2.4908,-999.25,0.0443,4615.4,0.093,0.0155,0.2517,0.0225,0.7102,67.5646,108.9117
10688,74.103,7.61444,1.34774,10.7737,3.87994,2.2812,40.261,85.7302,104.6356,91.074,87.9195,46.0647,116.9088,134.0168,105.8133,109.2528,42.2125,97.8124,117.8003,101.1929,96.2778,10.9801,117.9333,16.0211,0.0362,0.0112,0.0122,0.0081,0.0083,0.002,0,0,0.0001,1547.74,2541.428,0.0057,0.0034,0.0008,0.0186,4446.34,187.2941,0.2987,-0.011,0.0547,0.0643,0.0545,0.0402,0.09,0.0216,9.5154,0.2929,0.0109,0.0037,111.5914,60.0379,0.4834,2.3952,105.0441,106.1558,185.8195,9.0487,-0.008,-0.0394,106.343,143.4202,128.2137,0.1198,0.1205,0.1065,0.0001,0.0008,0.1112,0.1177,3.5275,3.6163,0.0999,0,2.7109,2.6001,2.6164,0.0001,183.7007,153.6089,-232.3125,-232.2267,0,3.011,-999.25,0.0419,4666,0.1065,0.167,0.202,0.0204,0.6106,63.9691,105.7628
10696,60.0334,30.7372,2.4987,4.52675,1.51503,0.688906,56.2392,248.6861,549.3769,345.7141,290.9183,59.9403,308.6447,474.231,419.9236,468.0411,59.2771,314.7405,580.4482,433.0948,337.6944,2.8926,467.7003,20.2015,0.0071,0.0009,0.0001,0.0018,0.0091,0.0072,0.0002,0,0.0005,1560.46,6043.56,0.0127,0.0041,0.0008,0.0188,6522.59,187.2941,0.2825,-0.0079,0.0349,0.029,0,0.0184,0.2261,0.0085,3.6074,0.173,0.015,0.0006,57.5972,58.8674,0.3176,1.9785,54.2581,53.6152,185.8195,9.0325,-0.0038,-0.0215,49.4272,382.3198,343.0896,0.0117,0.1282,0.0242,0.0004,0,0.014,0.0142,4.5538,4.4299,0.0293,0,2.7148,2.6603,2.6503,0.0079,4327.53,3175.57,-234.5423,-234.429,0,25.1733,-999.25,0.0197,4673.2,0.0241,0.5331,0.0925,0.0183,0.356,55.3798,94.6798
10704,71.1174,10.9708,1.27081,11.0393,3.23712,2.3646,38.8664,82.888,103.7976,89.9119,87.3063,36.8572,69.4425,76.9057,67.5527,68.8227,36.7211,76.1047,92.4639,80.5205,75.6229,11.122,76.5863,13.2011,0.042,0.0162,0.017,0.0069,0.0027,0.0016,0.0023,0.0007,0.0005,1561.35,3654.48,0.0059,0.004,0.0008,0.0147,5134.76,187.2941,0.2979,-0.0096,0.0292,0.0326,0,0.0401,0.1462,0.0206,5.3328,0.2283,0.0168,0.0041,93.8042,58.8674,0.4551,2.5401,88.3036,93.0574,185.8195,9.0479,-0.0012,0.0067,90.6744,92.3003,82.4309,0.082,0.0221,0.0625,0.0001,0.001,0.071,0.0785,4.0945,3.9872,0.06,0.388,2.7255,2.6542,2.66,0.0001,118.0934,114.5902,-230.1482,-230.451,0,2.5315,-999.25,0.0478,4594.67,0.0623,0.3183,0.2017,0.0314,0.4485,61.4073,100.8901
10712,67.3324,11.7218,1.84584,12.9535,3.14533,3.00117,33.2209,61.0228,72.5532,66.264,64.0216,30.5162,49.4205,56.2827,50.537,50.5846,31.3355,54.7607,65.0991,59.9853,58.587,15.0912,55.3947,17.2799,0.0454,0.0073,0.0206,0.0173,0.0001,0.0041,0.0037,0,0,1549.38,3249.01,0.0078,0.0041,0.0008,0.0252,4926.8,187.2941,0.2632,-0.0099,0.042,0.046,0,0.0354,0.1336,0.0202,3.1962,0.2491,0.0038,0.0023,106.8923,58.8674,0.4588,2.6177,100.7847,100.1097,186.3228,9.0132,-0.0034,-0.0043,112.5318,69.3115,61.8423,0.1061,0.0901,0.0764,0.0005,0.0024,0.0935,0.1044,3.9288,3.9795,0.0735,0,2.7074,2.6314,2.6382,0.0001,88.5898,89.3816,-223.6158,-223.5122,0,3.8653,-999.25,0.0532,4629.2,0.0764,0.2844,0.1781,0.0071,0.5304,62.4812,104.3379
10720,58.3464,23.8872,3.39593,7.96042,4.83331,1.5767,42.1048,129.1052,175.7718,146.2168,130.4175,45.436,179.2126,248.2037,177.8895,183.3892,45.6678,179.7948,237.6024,199.7506,170.5949,6.8392,195.8956,12.3619,0.0174,0.0024,0,0.0056,0.0168,0.0032,0,0,0.001,1544.71,4865.4,0.0116,0.0042,0.0008,0.0266,5974.165,187.2941,0.2671,-0.0086,0.0181,0.0169,0.0132,0.0313,0.2079,0.0176,3.788,0.1699,0.0064,0.0016,49.4042,58.8674,0.3638,2.3842,46.5731,41.6885,186.3228,9.0171,-0.0033,-0.0255,44.9078,321.0352,287.2888,0.0395,0.0828,0.0412,0.0006,0.0014,0.0277,0.0389,4.4735,4.3712,0.0401,0,2.7183,2.6812,2.6791,0.0009,411.657,375.7155,-225.1563,-225.411,0,14.3994,-999.25,0.029,4719.6,0.0412,0.4842,0.1574,0.012,0.3465,57.3946,98.663
10728,73.6476,4.75638,1.09473,13.9096,3.41889,3.1728,20.7144,30.2422,32.8129,31.2223,29.6471,23.6652,36.4162,32.4226,29.4954,29.4811,19.8727,29.0372,30.8479,29.6236,28.5185,32.0284,31.0448,9.4169,0.052,0.0109,0.0199,0.0176,0.0038,0.0003,0.0013,0,0,1544.92,1914.246,0.0017,0.0034,0.0008,0.023,3838.51,187.2941,0.2671,-0.0115,0.0652,0.0817,0.0547,0.0521,0.077,0.0287,9.683,0.2868,0.0127,0.0034,138.3416,62.379,0.5578,2.4624,130.4139,145.2008,186.3228,9.0171,-0.0061,-0.0238,146.3383,34.0528,30.2973,0.1825,0.105,0.1428,0.0002,0.0001,0.1617,0.1869,3.6142,3.5691,0.1284,0,2.724,2.5702,2.5985,0.0001,43.3821,35.3766,-224.7661,-225.3436,0,2.6413,-999.25,0.0537,4716.833,0.1424,0.1321,0.2618,0.0237,0.5823,65.2557,106.9938
10736,66.4117,21.6459,1.14249,7.28596,2.14416,1.36984,29.1395,51.8859,57.5322,54.2963,49.0488,37.5746,80.2788,87.2246,79.6995,78.1412,36.6929,76.4226,78.7703,78.8427,70.0932,18.4175,83.4238,13.385,0.0283,0.0014,0.0093,0.0129,0.0057,0.0005,0.0012,0.0008,0.0003,1555.599,3320.488,0.0038,0.004,0.0008,0.0214,4922.96,187.2941,0.2155,-0.0095,0.042,0.0409,0.0387,0.0373,0.153,0.02,4.1223,0.2244,0.0161,0.0014,77.3597,58.8674,0.4204,2.1625,73.1003,72.65,186.6584,8.9655,-0.0062,-0.0306,69.1745,110.7212,98.9472,0.0613,0.1156,0.0723,0.0002,0.0002,0.0631,0.0665,3.9345,3.921,0.0701,0.0713,2.7249,2.6401,2.6382,0.0004,142.2917,138.4313,-221.1085,-221.2091,0,6.0746,-999.25,0.0321,4730.333,0.0724,0.3365,0.1875,0.0301,0.4458,63.3313,105.0203
10744,69.3521,20.2294,0,6.36588,2.76498,1.28757,30.3872,48.2127,50.8807,47.125,45.5403,45.6456,73.8565,75.1345,67.424,66.7375,41.4212,79.4523,79.6155,69.8146,70.2774,21.2202,68.1259,17.8557,0.036,0.0158,0.018,0.001,0.0035,0.0028,0.0026,0.0002,0,1563.23,3809.46,0.0079,0.0039,0.0008,0.0101,5123.7,187.2941,0.1631,-0.0086,0.0337,0.0188,0.0594,0.0386,0.1259,0.0213,4.2713,0.2532,0.0112,0.002,67.6361,61.2084,0.4003,2.3549,64.067,70.7826,186.8261,8.9131,-0.004,-0.0114,63.2002,134.0566,119.9083,0.0339,0.0726,0.0557,0.0001,0.002,0.0439,0.0407,3.7874,3.6671,0.0546,0.1839,2.7168,2.6778,2.6524,0.004,174.8229,173.6741,-224.375,-224.0284,0,2.3574,-999.25,0.0439,4680.67,0.0558,0.2638,0.1941,0.0209,0.5212,63.137,104.5652
10752,80.1819,7.55712,1.09409,7.09341,2.42356,1.64991,36.828,66.2439,70.0124,62.1343,59.7391,33.7229,43.4372,44.3051,41.2133,41.7236,33.4355,53.1219,55.0596,50.4854,45.7056,16.0942,45.0131,16.9189,0.0326,0.0038,0.011,0.0136,0.0047,0.0004,0.0028,0,0,1552.5,3437.78,0.0037,0.0038,0.0008,0.0215,5181.24,187.2941,0.1477,-0.0092,0.0388,0.026,0.0489,0.0446,0.1112,0.0246,5.3716,0.2599,0.0104,0.003,87.2272,58.8674,0.4221,2.2262,82.6834,90.2267,186.8261,8.8977,-0.0053,-0.0478,86.441,74.0114,66.0486,0.0873,0.1013,0.0757,0.0002,0.0002,0.0778,0.0856,3.434,3.6476,0.0726,0,2.7195,2.6655,2.6436,0.0054,94.6317,102.7911,-228.9678,-228.937,0,4.6596,-999.25,0.0363,4707,0.0757,0.2241,0.2241,0.0194,0.5324,58.6444,97.7232
10760,63.1589,26.7737,1.46108,4.94476,2.69641,0.965095,63.143,296.6448,446.502,288.1479,245.8509,66.6329,427.462,529.186,261.5648,302.122,67.1376,436.2221,502.0023,389.7603,307.9178,3.4704,320.5115,21.3085,0.0148,0.008,0.0034,0.0015,0.0048,0.0074,0.0015,0,0,1534.66,5491.8,0.0117,0.004,0.0008,0.0151,6365.25,187.2941,0.1515,-0.0077,0.025,0.0146,0.0734,0.0246,0.2356,0.0136,4.4412,0.1496,0.0065,0.0012,42.9581,58.8674,0.3252,2.2847,40.7131,41.5537,186.8261,8.9015,-0.0066,-0.0283,40.6387,417.6518,374.3603,0.0309,0.1626,0.0337,0.0001,0.0005,0.0219,0.0306,4.3528,4.4635,0.0335,0.0614,2.7159,2.685,2.6673,0.0084,1142.1,1192.35,-233.3929,-232.9733,0,6.523,-999.25,0.0265,4629.83,0.0337,0.5587,0.1236,0.0122,0.3055,55.7963,94.3803
10768,64.6143,24.1584,2.0469,5.86773,2.21775,1.09489,58.3401,183.5363,224.135,176.8356,166.9146,62.7423,218.8217,303.829,240.3465,271.6161,65.6137,246.0495,279.403,217.2108,197.591,5.655,262.5925,18.4918,0.0053,0.0011,0.0002,0.0017,0.005,0.0065,0.0003,0,0.0007,1537.34,5645.28,0.0102,0.004,0.0008,0.0143,6399.145,187.2941,0.1092,-0.0074,0.0191,0.0252,0,0.0301,0.2026,0.0164,3.2264,0.1787,0.0099,0.0016,48.2159,60.0379,0.3442,2.2342,45.7861,47.301,186.8261,8.8592,-0.0007,0.0219,45.6352,382.888,343.6323,0.0346,-0.0038,0.031,0.0002,0,0.0201,0.0306,4.1854,4.1164,0.0307,0.3178,2.7194,2.6669,2.6773,0.0072,731.6802,650.7369,-232.4786,-232.1172,0,30.4734,-999.25,0.0155,4639.67,0.031,0.47,0.1515,0.0186,0.3599,58.0513,96.2952
10776,46.6436,45.9869,0,4.74719,1.89796,0.724277,52.47,143.0427,187.177,154.0806,151.3659,61.0162,250.3965,264.4614,190.0034,199.6682,56.5951,194.6056,237.0624,191.4647,199.8172,6.4901,213.3841,19.7478,0.0203,0.0075,0.0063,0.0035,0.0061,0.004,0.0008,0.0003,0.0012,1551.03,6524.52,0.0094,0.0041,0.0008,0.0159,6764.94,187.2941,0.1592,-0.0072,0.011,0.013,0,0.0278,0.1935,0.0148,4.3175,0.1936,0.01,0.0019,36.6032,60.0379,0.3482,2.7091,34.6779,37.6783,187.3294,8.9092,-0.0003,0.0091,35.3681,430.9424,386.0681,0.0184,-0.0055,0.0199,0.0001,0.0011,0.0138,0.0157,4.3977,4.3336,0.0197,0.0253,2.7149,2.6878,2.6912,0.0028,843.9029,899.7566,-232.2684,-232.1687,0,6.3126,-999.25,0.0297,4700,0.0199,0.4456,0.1395,0.0186,0.3962,56.1095,95.5773
10784,71.8817,19.6406,0,5.72514,1.60715,1.14546,45.5385,112.4988,139.6997,124.4882,118.1404,43.9909,109.4868,134.9922,108.8639,113.9007,45.3401,114.4926,140.8566,121.9102,114.2681,8.0329,129.1579,17.4843,0.0336,0.017,0.0008,0.0074,0.0135,0.0024,0,0.0004,0.0019,1550.09,4994.001,0.0096,0.0041,0.0008,0.0254,5967.13,187.2941,0.197,-0.0081,0.0346,0.0352,0.015,0.0279,0.1832,0.0152,1.5731,0.2052,0.0112,0.0006,54.3357,60.0379,0.346,2.9173,51.3878,52.2571,187.3294,8.947,-0.0039,-0.0257,55.8189,115.2128,102.9514,0.0362,0.0946,0.0377,0.0003,0.0029,0.0279,0.039,3.8824,3.9938,0.0376,0.493,2.7155,2.6498,2.6508,0.0001,147.4995,184.1121,-231.6696,-231.6326,0,4.5881,-999.25,0.0432,4693.333,0.0377,0.4178,0.1401,0.021,0.4212,56.3901,95.0611
10792,79.6086,11.2603,0,6.04202,1.72979,1.35926,39.1805,82.9189,100.4706,92.1866,87.9465,43.7757,106.8237,109.8248,104.8605,106.7113,40.1445,86.8773,105.6131,94.1357,90.1758,10.8476,109.193,13.729,0.017,0.0091,0.0007,0.001,0.0108,0.0012,0,0.0003,0.0024,1551.78,4240.3,0.0086,0.0042,0.0008,0.0158,5594.75,189.2706,0.1824,-0.0086,0.0384,0.0333,0,0.0193,0.1637,0.0099,3.369,0.2435,0.0088,0.0019,68.0993,62.379,0.3821,1.751,64.4484,66.2819,187.3294,8.9324,-0.0039,-0.0366,61.5307,146.3976,130.882,0.0581,0.079,0.0528,0.0001,0.0007,0.045,0.0555,3.6735,3.7759,0.0518,0,2.6993,2.6531,2.6444,0.0001,187.5245,111.0842,-231.5809,-231.4919,0,9.9882,-999.25,0.0256,4726,0.0525,0.3654,0.097,0.0165,0.5211,59.1922,98.8128
10800,73.4216,6.62002,0.905284,13.1673,2.90137,2.98441,22.7872,31.3759,33.5567,31.8452,31.0201,16.2934,18.3827,18.1206,17.4808,17.4026,19.8153,26.306,27.0464,26.2989,25.035,31.4019,18.223,12.7857,0.0345,0.0061,0.0157,0.0085,0.0079,0.0015,0,0.0001,0.0029,1542.59,3110.81,0.0081,0.0043,0.0008,0.0208,4843.57,189.2706,0.1939,-0.0096,0.0326,0.0364,0,0.0413,0.1014,0.023,7.7176,0.277,0.0077,0.003,86.0797,57.6968,0.5006,2.0485,81.4213,92.3767,187.8327,8.9439,-0.0025,0.0033,85.5591,26.7593,23.7902,0.0996,0.0382,0.0818,0.0004,0.0018,0.095,0.0923,3.5278,3.6573,0.077,0.2469,2.7116,2.6477,2.6542,0.0001,34.0553,43.0436,-225.8511,-226.5607,0,5.2606,-999.25,0.0427,4702.6,0.0819,0.1977,0.2073,0.0144,0.5805,61.8949,102.8679
10808,53.8215,40.4483,0,3.5171,1.63744,0.575631,43.8002,113.3425,150.5045,135.3214,124.8732,50.7736,206.5127,211.6066,188.7623,189.4365,48.4958,173.1577,223.8644,207.9097,196.6685,7.3898,196.6596,15.5876,0.034,0.0244,0.0029,0.0017,0.0063,0,0.0002,0.0026,0.0005,1544.36,5906.4,0.0045,0.0042,0.0008,0.0113,6380.66,189.2706,0.1369,-0.0073,0.0158,0.0096,0.0401,0.0244,0.2372,0.013,1.44,0.1485,0.0092,0.0016,38.6337,57.6968,0.3282,2.0566,36.6395,37.5158,187.8327,8.8869,-0.0062,-0.02,33.5082,399.7087,358.3904,0.0044,0.1651,0.0249,0,0.0004,0.0127,0.0061,4.8573,4.7351,0.0247,0.4389,2.7182,2.6936,2.683,0.0086,3403.709,1128.59,-224.8548,-225.2307,0,1.951,-999.25,0.0386,4734.667,0.0249,0.563,0.1229,0.0172,0.297,56.9528,98.2155
10816,80.2376,2.53375,1.47513,10.8709,2.51092,2.37173,31.8972,56.8776,65.0801,61.2797,58.9446,28.562,48.6487,51.827,45.0796,45.7443,29.6085,49.5326,56.5096,54.5415,53.4905,16.3186,50.5232,12.5762,0.0359,0.0131,0.0179,0.0046,0.0007,0.0071,0.0033,0,0.0002,1540.38,3257.39,0.011,0.0041,0.0008,0.0159,4923.19,189.2706,0.1207,-0.009,0.0391,0.0413,0,0.0392,0.0717,0.0229,6.6794,0.3143,0,0.0027,72.4845,58.8674,0.4285,1.862,68.7948,73.8524,187.8327,8.8707,-0.0016,0.0081,71.4638,68.6621,61.2626,0.0756,0.0343,0.0765,0.0002,0.0049,0.075,0.0762,3.3586,3.3636,0.0733,0,2.6973,2.6394,2.6432,0.0001,87.7595,82.7879,-228.6324,-228.9437,0,3.4572,-999.25,0.0469,4671,0.0766,0.118,0.1968,0,0.6852,64.9949,104.659
10824,82.5655,3.49148,0.925335,8.7976,2.32018,1.89994,51.9408,142.9484,174.0484,135.0874,134.2137,41.0296,78.1174,83.6151,68.9263,71.5132,49.2692,125.513,147.3949,118.5157,113.0714,7.4026,82.5048,19.451,0.0326,0.0086,0.0005,0.0126,0.0134,0.0002,0.0019,0.0008,0,1561.46,3241.64,0.0054,0.004,0.0008,0.0288,4838.87,189.2706,0.0999,-0.0088,0.0539,0.0594,0,0.0454,0.0586,0.025,4.3206,0.32,0.0122,0.0027,81.6734,57.6968,0.409,1.8598,77.5909,79.1247,188.0005,8.8499,-0.0002,0.0166,75.2677,105.9617,94.736,0.0808,0.0026,0.0742,0.0003,0.0006,0.0789,0.0767,3.5339,3.4097,0.0729,0.2525,2.7134,2.6085,2.6179,0.0001,137.7813,155.8548,-235.4821,-235.6531,0,6.1779,-999.25,0.0379,4788.67,0.0744,0.0826,0.2281,0.0229,0.6664,65.7897,103.8592
10832,73.4065,13.7242,1.65322,7.18541,2.52134,1.50928,56.4632,169.0729,205.6551,157.1559,152.267,53.9228,145.0653,142.8618,111.5866,121.0943,54.6668,145.6208,166.1943,134.9147,128.5075,6.3631,143.2063,15.8053,0.0209,0.0037,0.0097,0.0046,0.0053,0.0036,0.0028,0,0.0004,1550.44,3591.13,0.0092,0.0042,0.0008,0.0167,5230.92,189.2706,0.0476,-0.0084,0.0487,0.0495,0,0.0384,0.1206,0.0213,2.3902,0.2597,0.0095,0.0022,84.148,58.8674,0.4352,2.4955,80.1373,85.1027,188.3361,8.7976,-0.0043,-0.0417,80.1451,110.3706,99.2449,0.0854,0.1146,0.07,0.0002,0.0014,0.0743,0.0844,3.4561,3.5692,0.0686,0.2274,2.7139,2.6253,2.6267,0.0055,164.5104,159.375,-241.5882,-241.4133,0,6.9054,-999.25,0.0301,4748.2,0.07,0.2493,0.1929,0.0178,0.5399,60.1528,100.1023
10840,69.8424,16.2467,1.4033,8.10223,2.71791,1.68749,58.6941,183.2023,222.8425,170.4435,164.1334,54.7108,156.4923,161.848,113.6898,120.9159,54.9058,157.3876,181.787,148.4443,137.4975,5.867,149.693,14.5288,0.016,0.0004,0.0008,0.0129,0.0018,0.0002,0.005,0.0004,0,1524.95,4407.24,0.0057,0.0041,0.0008,0.0203,5770.916,189.2706,0.0399,-0.0078,0.0323,0.028,0.0226,0.0306,0.1463,0.0162,5.1348,0.2441,0.0128,0.002,62.8567,60.0379,0.385,2.4295,59.8824,64.6063,188.3361,8.7899,-0.0049,-0.0246,60.2543,108.4722,96.913,0.0581,0.1182,0.0521,0.0002,0,0.0466,0.0561,3.7966,3.8239,0.051,0.0051,2.7127,2.6621,2.6548,0.0001,138.8463,163.798,-238.0055,-238.6115,0,13.7016,-999.25,0.0216,4682,0.052,0.3185,0.1538,0.0239,0.5038,57.182,94.9966
10848,67.0856,13.5193,2.36522,11.1042,3.61866,2.30705,48.6313,99.1233,107.2665,92.5554,90.6448,55.5953,136.849,144.8357,103.6492,106.3817,53.8759,123.4172,135.0408,109.0428,103.9345,10.8043,113.7093,19.3959,0.0386,0.0173,0.0127,0.0067,0.0033,0.0044,0.0002,0,0.0002,1530.61,4028.01,0.0063,0.0038,0.0008,0.0149,5476.167,189.2706,0.0537,-0.008,-0.0048,-0.0066,0.0035,0.0462,0.1903,0.0255,4.0962,0.1647,0.0151,0.0016,52.5165,58.8674,0.3792,2.6718,49.999,50.4915,188.8394,8.8037,0.0018,0.0176,49.3677,150.8882,135.2744,0.0467,-0.0438,0.058,0.0001,0.0011,0.0492,0.0504,4.3867,4.2994,0.0525,0.0283,2.7402,2.7213,2.7181,0.0028,210.5577,198.7087,-232.9191,-233.0106,0,2.2759,-999.25,0.0449,4660,0.058,0.437,0.2322,0.0282,0.3026,58.9299,98.628
10856,74.5562,8.43872,0,11.4572,3.02292,2.52497,41.8122,78.6322,85.5272,75.9588,73.2046,39.3619,73.9263,77.2376,69.6067,71.002,39.9832,72.747,78.9229,71.4264,68.0339,13.165,76.0927,18.5458,0.0451,0.0095,0.0146,0.013,0.0108,0.0002,0.0004,0.0004,0,1526.08,2882.78,0.0038,0.0037,0.0008,0.0248,4582.709,189.2706,0.0476,-0.0089,0.0421,0.0389,0.0454,0.0363,0.0932,0.0198,8.0413,0.2957,0.0071,0.0037,95.6203,58.8674,0.4785,2.4483,91.0628,96.6691,188.8394,8.7976,-0.0047,-0.0124,96.1597,83.1635,74.2466,0.1006,0.1023,0.0872,0.0003,0.0004,0.0913,0.0937,3.5097,3.6027,0.0825,0,2.7035,2.6435,2.6381,0.0001,106.3651,97.1367,-234.1213,-233.9346,0,3.5291,-999.25,0.0488,4751.2,0.0871,0.1756,0.1824,0.0133,0.6286,62.6248,103.1688
10864,76.315,6.32882,0.805426,11.3978,2.7171,2.43586,41.7505,83.1217,96.9543,85.3536,79.9178,39.2939,70.9029,77.0624,68.3658,69.5223,39.4943,75.7056,87.1103,80.0221,72.2881,11.716,77.1499,13.1824,0.016,0.007,0.0071,0,0.0082,0.0082,0,0,0.0007,1525.67,3090.03,0.0152,0.0041,0.0008,0.0171,4881.96,189.2706,-0.0179,-0.0085,0.035,0.0428,0,0.0406,0.1112,0.0228,5.5224,0.2665,0.0086,0.002,89.5785,57.6968,0.4294,1.8944,85.5709,86.3475,188.8394,8.7321,-0.0023,-0.0029,91.1277,67.8593,60.5405,0.1036,0.0465,0.0861,0.0002,0.0031,0.0916,0.1023,3.5283,3.6468,0.0806,0.1337,2.7141,2.6369,2.6501,0.0001,86.7243,103.2258,-238.4504,-238.5476,0,7.441,-999.25,0.0312,4737.5,0.086,0.224,0.2041,0.0161,0.5558,61.7946,102.1399
10872,74.8977,8.54285,0.837858,10.422,3.0401,2.2595,39.9346,76.6842,88.2756,79.0398,76.1493,35.5653,64.5805,69.4128,61.8685,63.215,37.0598,67.5471,77.8394,70.7868,67.1363,12.6518,70.8646,17.257,0.0377,0.0013,0.0163,0.0193,0.001,0.0043,0,0,0,1526.77,3374.33,0.0046,0.0039,0.0008,0.0247,5035.06,189.2706,-0.041,-0.0082,0.019,0.0222,0,0.04,0.1328,0.0217,6.6245,0.2431,0.0098,0.0036,77.6235,57.6968,0.4431,2.488,74.2313,83.5702,189.3427,8.709,-0.0008,0.0016,78.2012,67.836,60.5209,0.0805,0.0074,0.0749,0.0002,0.0005,0.0772,0.0817,3.7078,3.7955,0.0694,0,2.717,2.672,2.6774,0.0001,86.6963,95.9219,-239.8456,-240.127,0,4.2004,-999.25,0.0423,4741.67,0.0748,0.2823,0.2011,0.0183,0.4983,60.8855,100.5555
10880,69.1585,15.4737,1.04639,9.61077,2.68827,2.02243,53.425,177.0082,254.2423,201.8845,183.1822,55.8413,228.1351,296.3363,232.8121,263.6982,56.9907,223.4216,302.7099,248.5384,212.4881,4.9533,266.9245,19.4329,0.0329,0.0047,0.0103,0.0152,0.0035,0.0035,0.0003,0,0,1531.01,3654.5,0.0044,0.0036,0.0008,0.0223,5292.38,189.2706,-0.0372,-0.0081,0.0445,0.0492,0.0739,0.0285,0.1936,0.015,2.7025,0.1924,0.0136,0.0013,95.5821,58.8674,0.3762,2.103,91.3885,99.5354,189.3427,8.7128,-0.0051,-0.0307,89.5178,244.6041,219.7459,0.0783,0.1211,0.0694,0.0001,0.0004,0.0691,0.077,4.2417,4.2031,0.0675,0,2.7196,2.6258,2.6339,0.0097,384.7681,426.5074,-244.4228,-244.5789,0,4.2781,-999.25,0.0373,4714.17,0.0693,0.4459,0.1434,0.0254,0.3853,58.9385,99.4522
10888,62.841,24.5182,2.3948,6.75969,2.30402,1.18236,61.3741,335.4555,1133.7,466.6513,444.2392,62.9974,444.4008,656.1451,279.478,346.5708,61.1925,355.9579,1007.76,433.2016,372.7952,2.1429,397.9753,14.507,0.0246,0.0039,0.0047,0.01,0.009,0.0025,0,0,0,1521.71,4883.94,0.0056,0.0032,0.0008,0.0216,5987.21,189.2706,-0.0603,-0.0072,0.0275,0.0225,0.0564,0.0196,0.2254,0.0111,1.9649,0.17,0.0037,0.0009,66.1661,57.6968,0.3519,2.2789,63.3319,67.5913,189.4685,8.6897,-0.0022,-0.0161,60.3382,430.157,385.3133,0.0293,0.0605,0.0424,0.0001,0.0004,0.0359,0.0336,4.3877,4.3667,0.0418,0.9299,2.7061,2.6715,2.6629,0.0044,1693.21,1307.224,-253.8,-253.723,0,5.8081,-999.25,0.0302,4767.667,0.0423,0.5314,0.0983,0.0069,0.3633,56.5978,96.4235
10896,50.1584,44.3449,0,3.6904,1.2739,0.532424,57.1288,284.2183,690.4332,346.5256,286.7113,58.8044,376.2301,522.6652,312.0349,384.086,57.4635,323.7901,676.3983,347.3755,312.45,2.8858,415.3623,11.935,0.0246,0.006,0.0069,0.0047,0.0113,0.001,0,0.0016,0.0013,1507.92,5075.624,0.0083,0.0042,0.0008,0.02,6088.709,189.2706,-0.1026,-0.0071,0.0241,0.0187,0,0.0229,0.1997,0.0113,2.5142,0.1956,0.0146,0.0017,50.1532,58.8674,0.344,2.0706,48.1008,56.4353,189.846,8.6474,0.0003,0.0037,46.0527,453.5243,405.9487,0.0223,-0.0055,0.0394,0.0002,0.0014,0.0272,0.0254,4.3583,4.056,0.0387,0.2127,2.7148,2.678,2.6687,0.0001,1321.66,688.378,-252.7574,-252.7866,0,7.3024,-999.25,0.0329,4806.2,0.0393,0.4623,0.1153,0.0242,0.3982,57.5466,96.3889
10898,66.5854,26.4417,0,4.88328,1.27395,0.8157,60.9298,450.123,1165.65,479.9229,361.8377,63.4643,703.623,849.3463,316.6288,389.8896,62.1467,559.0374,1087.69,516.8899,403.9741,2.0837,404.9211,11.6819,0.015,0.0004,0.0031,0.0043,0.0115,0.0006,0,0,0.0017,1508.33,5631.23,0.0065,0.0041,0.0008,0.0181,6496.42,189.2706,-0.1034,-0.0069,0.0398,0.0332,0.0168,0.0173,0.2292,0.0088,5.1488,0.1705,0.0091,0.0013,52.8365,58.8674,0.3472,1.9472,50.6762,49.3532,189.846,8.6466,-0.0046,-0.0335,53.6367,416.115,372.8754,0.0378,0.1143,0.0339,0.0002,0,0.0233,0.0353,4.1572,4.1925,0.0368,0.0737,2.7088,2.6532,2.6419,0.0058,1037.26,907.7014,-252.3842,-251.9879,0,14.4477,-999.25,0.0216,4622.8,0.0339,0.5416,0.0867,0.0169,0.3547,55.6295,94.8584